mz,intensity
332.31604,1026.4
344.48978,948.8
350.70938,1037.7
360.05307,963.1
368.78214,882.4
374.83954,980.5
379.49435,1096.5
397.80707,1075.8
404.39462,903.9
440.5462,1063.9
477.45038,1132.2
503.75729,1200.3
522.75354,1300.5
524.22778,1115.2
532.88312,1224.9
608.25763,1146.7
805.40173,1136.4
841.28534,1343.9
880.90015,1357.8
893.151,1718.1
1079.29431,1747.2
1083.57056,1454.0
1117.89697,1620.3
1210.28235,4728.5
1222.19824,9572453.0
1222.70105,2459.8
