mz,intensity
356.95981,871.9
372.50101,1045.6
378.14749,980.1
444.54126,1222.2
461.08069,1000.6
503.53333,982.2
503.67636,1001.0
519.75409,928.4
547.83801,1068.0
555.52551,1175.6
618.91193,1092.5
626.2002,1184.5
779.3028,1138.1
938.1355,1046.4
945.70782,1247.4
1137.8031,1320.9
1210.28247,5116.4
1213.48206,1437.1
1220.1145,1523.1
1222.19812,7926538.0
1222.703,3311.3
