mz,intensity
340.00674,1141.3
340.55981,1063.2
347.17227,1123.9
356.85425,1097.2
357.65662,1124.7
372.71051,1131.0
387.35892,1115.2
391.35779,1076.4
391.68982,1158.1
433.8385,1113.6
457.71158,1195.4
460.46579,1204.7
464.94077,1266.5
510.52414,1136.8
559.7196,1109.5
605.08734,1159.4
711.08759,1223.3
890.78119,1257.3
974.84241,1225.0
982.3222,1470.9
995.19232,1416.7
1013.09796,1352.5
1210.28198,6065.0
1222.19836,9225195.0
1222.70313,4121.1
