mz,intensity
332.06021,426.5
336.90347,479.9
338.33432,431.0
358.75977,404.3
374.06409,466.7
393.91266,427.8
404.30563,521.1
409.99597,382.3
410.23239,430.4
416.31894,410.7
417.09613,478.0
457.02832,493.4
463.30368,450.8
476.22025,507.2
557.70911,560.9
592.25208,494.4
607.34741,548.3
699.70447,490.5
975.84296,674.7
1210.28503,4029.1
1222.19983,8105563.5
1222.70251,2347.8
