mz,intensity
340.07019,784.5
358.33447,878.6
361.66824,938.7
366.04648,863.7
369.91284,805.5
377.60736,799.7
386.83548,810.1
398.35867,843.2
469.78613,862.6
522.00177,822.5
544.08295,840.6
590.25476,783.7
730.40021,921.7
746.42548,876.0
780.89325,843.7
864.55621,993.0
900.02783,1054.2
977.4314,939.9
1210.27942,2501.1
1222.1958,5550065.0
1222.70166,2458.2
1222.86426,1806.6
