mz,intensity
341.03925,634.6
359.34561,632.9
365.46857,709.9
461.82013,671.1
471.57309,700.3
502.41522,582.6
526.73523,657.8
531.2934,620.3
569.29407,631.5
575.81604,712.2
616.1543,631.0
651.30334,689.7
708.67084,664.7
774.90411,790.6
947.94586,705.3
948.77332,720.2
951.34991,777.7
1204.224,980.3
1210.27991,2446.8
1222.19678,5271204.0
1222.70337,4266.8
