mz,intensity
332.16513,797.9
341.32874,766.8
352.11716,816.3
368.96439,808.7
410.44894,885.5
425.65912,829.2
453.17029,915.1
462.48849,898.5
530.1264,939.4
554.56219,866.7
568.52216,846.1
570.43384,997.7
572.24286,822.9
606.30804,912.8
785.08087,990.8
798.87738,959.6
837.14465,868.0
856.45361,846.0
903.2428,902.2
949.44452,905.7
1038.50977,1114.1
1153.98389,1187.1
1210.27979,3529.9
1222.19568,5028520.0
1222.70129,2488.4
